File: i-t_example1.txt
Oct. 19, 2022   13:05:27
Amperometric i-t Curve
File: f:\Data Source:  Experiment
Instrument Model:  CHI760E
Ref. Electrode:
Header:
Note:

Init E (V) = 0.5
Sample Interval (s) = 0.1
Run Time (sec) = 150
Quiet Time (sec) = 0.2
Sensitivity (A/V) = 1e-9

Time/sec, Current/A

1.00000e-1, -3.20723e-9
2.00000e-1, -3.18565e-9
3.00000e-1, -3.16786e-9
4.00000e-1, -3.15266e-9
5.00000e-1, -3.13995e-9
6.00000e-1, -3.12859e-9
7.00000e-1, -3.11936e-9
8.00000e-1, -3.11052e-9
9.00000e-1, -3.10279e-9
1.00000e+0, -3.09569e-9
1.10000e+0, -3.08962e-9
1.20000e+0, -3.08386e-9
1.30000e+0, -3.07850e-9
1.40000e+0, -3.07346e-9
1.50000e+0, -3.06921e-9
1.60000e+0, -3.06506e-9
1.70000e+0, -3.06119e-9
1.80000e+0, -3.05745e-9
1.90000e+0, -3.05388e-9
2.00000e+0, -3.05079e-9
2.10000e+0, -3.04760e-9
2.20000e+0, -3.04494e-9
2.30000e+0, -3.04240e-9
2.40000e+0, -3.03970e-9
2.50000e+0, -3.03742e-9
2.60000e+0, -3.03483e-9
2.70000e+0, -3.03265e-9
2.80000e+0, -3.03053e-9
2.90000e+0, -3.02834e-9
3.00000e+0, -3.02677e-9
3.10000e+0, -3.02484e-9
3.20000e+0, -3.02325e-9
3.30000e+0, -3.02134e-9
3.40000e+0, -3.01976e-9
3.50000e+0, -3.01841e-9
3.60000e+0, -3.01659e-9
3.70000e+0, -3.01506e-9
3.80000e+0, -3.01363e-9
3.90000e+0, -3.01257e-9
4.00000e+0, -3.01103e-9
4.10000e+0, -3.00968e-9
4.20000e+0, -3.00851e-9
4.30000e+0, -3.00720e-9
4.40000e+0, -3.00634e-9
4.50000e+0, -3.00499e-9
4.60000e+0, -3.00387e-9
4.70000e+0, -3.00300e-9
4.80000e+0, -3.00195e-9
4.90000e+0, -3.00066e-9
5.00000e+0, -2.99981e-9
5.10000e+0, -2.99893e-9
5.20000e+0, -2.99769e-9
5.30000e+0, -2.99686e-9
5.40000e+0, -2.99610e-9
5.50000e+0, -2.99524e-9
5.60000e+0, -2.99445e-9
5.70000e+0, -2.99354e-9
5.80000e+0, -2.99262e-9
5.90000e+0, -2.99197e-9
6.00000e+0, -2.99122e-9
6.10000e+0, -2.99038e-9
6.20000e+0, -2.98965e-9
6.30000e+0, -2.98890e-9
6.40000e+0, -2.98826e-9
6.50000e+0, -2.98753e-9
6.60000e+0, -2.98710e-9
6.70000e+0, -2.98624e-9
6.80000e+0, -2.98569e-9
6.90000e+0, -2.98503e-9
7.00000e+0, -2.98433e-9
7.10000e+0, -2.98366e-9
7.20000e+0, -2.98295e-9
7.30000e+0, -2.98226e-9
7.40000e+0, -2.98148e-9
7.50000e+0, -2.98123e-9
7.60000e+0, -2.98056e-9
7.70000e+0, -2.98014e-9
7.79999e+0, -2.97940e-9
7.89999e+0, -2.97887e-9
7.99999e+0, -2.97836e-9
8.09999e+0, -2.97794e-9
8.20000e+0, -2.97752e-9
8.30000e+0, -2.97708e-9
8.40000e+0, -2.97635e-9
8.50000e+0, -2.97590e-9
8.60000e+0, -2.97545e-9
8.70000e+0, -2.97514e-9
8.80000e+0, -2.97473e-9
8.90000e+0, -2.97433e-9
9.00000e+0, -2.97364e-9
9.10000e+0, -2.97342e-9
9.20000e+0, -2.97257e-9
9.30000e+0, -2.97219e-9
9.40000e+0, -2.97202e-9
9.50000e+0, -2.97122e-9
9.60000e+0, -2.97086e-9
9.70000e+0, -2.97033e-9
9.80000e+0, -2.97023e-9
9.90000e+0, -2.96965e-9
1.00000e+1, -2.96941e-9
1.01000e+1, -2.96906e-9
1.02000e+1, -2.96856e-9
1.03000e+1, -2.96794e-9
1.04000e+1, -2.96782e-9
1.05000e+1, -2.96741e-9
1.06000e+1, -2.96693e-9
1.07000e+1, -2.96668e-9
1.08000e+1, -2.96609e-9
1.09000e+1, -2.96603e-9
1.10000e+1, -2.96587e-9
1.11000e+1, -2.96540e-9
1.12000e+1, -2.96479e-9
1.13000e+1, -2.96496e-9
1.14000e+1, -2.96437e-9
1.15000e+1, -2.96394e-9
1.16000e+1, -2.96378e-9
1.17000e+1, -2.96342e-9
1.18000e+1, -2.96306e-9
1.19000e+1, -2.96272e-9
1.20000e+1, -2.96225e-9
1.21000e+1, -2.96236e-9
1.22000e+1, -2.96163e-9
1.23000e+1, -2.96150e-9
1.24000e+1, -2.96118e-9
1.25000e+1, -2.96074e-9
1.26000e+1, -2.96025e-9
1.27000e+1, -2.96001e-9
1.28000e+1, -2.96015e-9
1.29000e+1, -2.95963e-9
1.30000e+1, -2.95936e-9
1.31000e+1, -2.95937e-9
1.32000e+1, -2.95865e-9
1.33000e+1, -2.95860e-9
1.34000e+1, -2.95836e-9
1.35000e+1, -2.95762e-9
1.36000e+1, -2.95755e-9
1.37000e+1, -2.95758e-9
1.38000e+1, -2.95729e-9
1.39000e+1, -2.95693e-9
1.40000e+1, -2.95656e-9
1.41000e+1, -2.95643e-9
1.42000e+1, -2.95632e-9
1.43000e+1, -2.95576e-9
1.44000e+1, -2.95550e-9
1.45000e+1, -2.95544e-9
1.46000e+1, -2.95523e-9
1.47000e+1, -2.95475e-9
1.48000e+1, -2.95466e-9
1.49000e+1, -2.95422e-9
1.50000e+1, -2.95396e-9
1.51000e+1, -2.95370e-9
1.52000e+1, -2.95355e-9
1.53000e+1, -2.95347e-9
1.54000e+1, -2.95316e-9
1.55000e+1, -2.95327e-9
1.56000e+1, -2.95309e-9
1.57000e+1, -2.95249e-9
1.58000e+1, -2.95224e-9
1.59000e+1, -2.95234e-9
1.60000e+1, -2.95200e-9
1.61000e+1, -2.95173e-9
1.62000e+1, -2.95142e-9
1.63000e+1, -2.95120e-9
1.64000e+1, -2.95116e-9
1.65000e+1, -2.95090e-9
1.66000e+1, -2.95058e-9
1.67000e+1, -2.95037e-9
1.68000e+1, -2.95035e-9
1.69000e+1, -2.95021e-9
1.70000e+1, -2.94993e-9
1.71000e+1, -2.94951e-9
1.72000e+1, -2.94953e-9
1.73000e+1, -2.94930e-9
1.74000e+1, -2.94920e-9
1.75000e+1, -2.94873e-9
1.76000e+1, -2.94861e-9
1.77000e+1, -2.94840e-9
1.78000e+1, -2.94822e-9
1.79000e+1, -2.94794e-9
1.80000e+1, -2.94786e-9
1.81000e+1, -2.94741e-9
1.82000e+1, -2.94747e-9
1.83000e+1, -2.94719e-9
1.84000e+1, -2.94687e-9
1.85000e+1, -2.94712e-9
1.86000e+1, -2.94674e-9
1.87000e+1, -2.94659e-9
1.88000e+1, -2.94621e-9
1.89000e+1, -2.94595e-9
1.90000e+1, -2.94605e-9
1.91000e+1, -2.94585e-9
1.92000e+1, -2.94558e-9
1.93000e+1, -2.94551e-9
1.94000e+1, -2.94524e-9
1.95000e+1, -2.94517e-9
1.96000e+1, -2.94519e-9
1.97000e+1, -2.94512e-9
1.98000e+1, -2.94459e-9
1.99000e+1, -2.94450e-9
2.00000e+1, -2.94414e-9
2.01000e+1, -2.94419e-9
2.02000e+1, -2.94388e-9
2.03000e+1, -2.94381e-9
2.04000e+1, -2.94391e-9
2.05000e+1, -2.94353e-9
2.06000e+1, -2.94342e-9
2.07000e+1, -2.94292e-9
2.08000e+1, -2.94307e-9
2.09000e+1, -2.94266e-9
2.10000e+1, -2.94259e-9
2.11000e+1, -2.94281e-9
2.12000e+1, -2.94255e-9
2.13000e+1, -2.94245e-9
2.14000e+1, -2.94209e-9
2.15000e+1, -2.94161e-9
2.16000e+1, -2.94184e-9
2.17000e+1, -2.94152e-9
2.18000e+1, -2.94167e-9
2.19000e+1, -2.94108e-9
2.20000e+1, -2.94104e-9
2.21000e+1, -2.94096e-9
2.22000e+1, -2.94071e-9
2.23000e+1, -2.94063e-9
2.24000e+1, -2.94058e-9
2.25000e+1, -2.94032e-9
2.26000e+1, -2.94043e-9
2.27001e+1, -2.94020e-9
2.28001e+1, -2.93998e-9
2.29001e+1, -2.93983e-9
2.30001e+1, -2.93963e-9
2.31001e+1, -2.93953e-9
2.32001e+1, -2.93914e-9
2.33001e+1, -2.93938e-9
2.34001e+1, -2.93916e-9
2.35001e+1, -2.93892e-9
2.36001e+1, -2.93853e-9
2.37001e+1, -2.93869e-9
2.38001e+1, -2.93850e-9
2.39001e+1, -2.93849e-9
2.40001e+1, -2.93844e-9
2.41001e+1, -2.93808e-9
2.42001e+1, -2.93824e-9
2.43001e+1, -2.93816e-9
2.44001e+1, -2.93791e-9
2.45001e+1, -2.93781e-9
2.46001e+1, -2.93756e-9
2.47001e+1, -2.93720e-9
2.48001e+1, -2.93722e-9
2.49001e+1, -2.93717e-9
2.50001e+1, -2.93690e-9
2.51001e+1, -2.93683e-9
2.52001e+1, -2.93667e-9
2.53001e+1, -2.93667e-9
2.54001e+1, -2.93632e-9
2.55001e+1, -2.93641e-9
2.56001e+1, -2.93629e-9
2.57001e+1, -2.93616e-9
2.58001e+1, -2.93611e-9
2.59001e+1, -2.93586e-9
2.60001e+1, -2.93580e-9
2.61001e+1, -2.93589e-9
2.62001e+1, -2.93550e-9
2.63001e+1, -2.93551e-9
2.64001e+1, -2.93531e-9
2.65001e+1, -2.93501e-9
2.66001e+1, -2.93494e-9
2.67001e+1, -2.93478e-9
2.68001e+1, -2.93470e-9
2.69001e+1, -2.93439e-9
2.70001e+1, -2.93451e-9
2.71001e+1, -2.93420e-9
2.72001e+1, -2.93414e-9
2.73001e+1, -2.93418e-9
2.74001e+1, -2.93390e-9
2.75001e+1, -2.93373e-9
2.76001e+1, -2.93379e-9
2.77001e+1, -2.93372e-9
2.78001e+1, -2.93367e-9
2.79001e+1, -2.93331e-9
2.80001e+1, -2.93342e-9
2.81001e+1, -2.93310e-9
2.82001e+1, -2.93321e-9
2.83001e+1, -2.93286e-9
2.84001e+1, -2.93301e-9
2.85001e+1, -2.93274e-9
2.86001e+1, -2.93245e-9
2.87001e+1, -2.93237e-9
2.88001e+1, -2.93246e-9
2.89001e+1, -2.93238e-9
2.90001e+1, -2.93205e-9
2.91001e+1, -2.93191e-9
2.92001e+1, -2.93213e-9
2.93001e+1, -2.93165e-9
2.94001e+1, -2.93182e-9
2.95001e+1, -2.93156e-9
2.96001e+1, -2.93166e-9
2.97001e+1, -2.93148e-9
2.98001e+1, -2.93116e-9
2.99001e+1, -2.93125e-9
3.00001e+1, -2.93103e-9
3.01001e+1, -2.93102e-9
3.02001e+1, -2.93103e-9
3.03001e+1, -2.93079e-9
3.04001e+1, -2.93097e-9
3.05001e+1, -2.93067e-9
3.06001e+1, -2.93041e-9
3.07001e+1, -2.93020e-9
3.08001e+1, -2.93028e-9
3.09001e+1, -2.93024e-9
3.10001e+1, -2.93006e-9
3.11001e+1, -2.92983e-9
3.12001e+1, -2.92989e-9
3.13001e+1, -2.92977e-9
3.14001e+1, -2.92963e-9
3.15001e+1, -2.92972e-9
3.16001e+1, -2.92956e-9
3.17001e+1, -2.92943e-9
3.18001e+1, -2.92963e-9
3.19001e+1, -2.92923e-9
3.20001e+1, -2.92932e-9
3.21001e+1, -2.92907e-9
3.22001e+1, -2.92872e-9
3.23001e+1, -2.92878e-9
3.24001e+1, -2.92864e-9
3.25001e+1, -2.92858e-9
3.26001e+1, -2.92847e-9
3.27001e+1, -2.92866e-9
3.28001e+1, -2.92849e-9
3.29001e+1, -2.92830e-9
3.30001e+1, -2.92809e-9
3.31001e+1, -2.92802e-9
3.32001e+1, -2.92794e-9
3.33001e+1, -2.92789e-9
3.34001e+1, -2.92796e-9
3.35001e+1, -2.92767e-9
3.36001e+1, -2.92771e-9
3.37001e+1, -2.92743e-9
3.38001e+1, -2.92743e-9
3.39001e+1, -2.92727e-9
3.40001e+1, -2.92738e-9
3.41001e+1, -2.92738e-9
3.42001e+1, -2.92725e-9
3.43000e+1, -2.92733e-9
3.44000e+1, -2.92694e-9
3.45000e+1, -2.92671e-9
3.46000e+1, -2.92688e-9
3.47000e+1, -2.92687e-9
3.48000e+1, -2.92672e-9
3.49000e+1, -2.92655e-9
3.50000e+1, -2.92635e-9
3.51000e+1, -2.92631e-9
3.52000e+1, -2.92622e-9
3.53000e+1, -2.92615e-9
3.54000e+1, -2.92615e-9
3.55000e+1, -2.92593e-9
3.56000e+1, -2.92573e-9
3.57000e+1, -2.92583e-9
3.58000e+1, -2.92569e-9
3.59000e+1, -2.92544e-9
3.60000e+1, -2.92568e-9
3.61000e+1, -2.92544e-9
3.62000e+1, -2.92530e-9
3.63000e+1, -2.92560e-9
3.64000e+1, -2.92535e-9
3.65000e+1, -2.92518e-9
3.66000e+1, -2.92506e-9
3.67000e+1, -2.92497e-9
3.68000e+1, -2.92493e-9
3.69000e+1, -2.92476e-9
3.70000e+1, -2.92507e-9
3.71000e+1, -2.92470e-9
3.72000e+1, -2.92484e-9
3.73000e+1, -2.92448e-9
3.74000e+1, -2.92418e-9
3.75000e+1, -2.92429e-9
3.76000e+1, -2.92432e-9
3.77000e+1, -2.92419e-9
3.78000e+1, -2.92420e-9
3.79000e+1, -2.92391e-9
3.80000e+1, -2.92381e-9
3.81000e+1, -2.92392e-9
3.82000e+1, -2.92367e-9
3.83000e+1, -2.92359e-9
3.84000e+1, -2.92356e-9
3.85000e+1, -2.92363e-9
3.86000e+1, -2.92359e-9
3.87000e+1, -2.92332e-9
3.88000e+1, -2.92323e-9
3.89000e+1, -2.92309e-9
3.90000e+1, -2.92314e-9
3.91000e+1, -2.92283e-9
3.92000e+1, -2.92268e-9
3.93000e+1, -2.92267e-9
3.94000e+1, -2.92282e-9
3.95000e+1, -2.92264e-9
3.96000e+1, -2.92250e-9
3.97000e+1, -2.92262e-9
3.98000e+1, -2.92241e-9
3.99000e+1, -2.92250e-9
4.00000e+1, -2.92208e-9
4.01000e+1, -2.92216e-9
4.02000e+1, -2.92232e-9
4.03000e+1, -2.92224e-9
4.04000e+1, -2.92227e-9
4.05000e+1, -2.92191e-9
4.06000e+1, -2.92198e-9
4.07000e+1, -2.92159e-9
4.07999e+1, -2.92183e-9
4.08999e+1, -2.92172e-9
4.09999e+1, -2.92179e-9
4.10999e+1, -2.92178e-9
4.11999e+1, -2.92135e-9
4.12999e+1, -2.92143e-9
4.13999e+1, -2.92106e-9
4.14999e+1, -2.92099e-9
4.15999e+1, -2.92111e-9
4.16999e+1, -2.92111e-9
4.17999e+1, -2.92082e-9
4.18999e+1, -2.92076e-9
4.19999e+1, -2.92053e-9
4.20999e+1, -2.92070e-9
4.21999e+1, -2.92069e-9
4.22999e+1, -2.92049e-9
4.23999e+1, -2.92037e-9
4.24999e+1, -2.92046e-9
4.25999e+1, -2.92012e-9
4.26999e+1, -2.92028e-9
4.27999e+1, -2.92009e-9
4.28999e+1, -2.92015e-9
4.29999e+1, -2.91984e-9
4.30999e+1, -2.92007e-9
4.31999e+1, -2.91997e-9
4.32999e+1, -2.91965e-9
4.33999e+1, -2.91969e-9
4.34999e+1, -2.91980e-9
4.35999e+1, -2.91935e-9
4.36999e+1, -2.91953e-9
4.37999e+1, -2.91939e-9
4.38999e+1, -2.91933e-9
4.39999e+1, -2.91951e-9
4.40999e+1, -2.91952e-9
4.41999e+1, -2.91923e-9
4.42999e+1, -2.91888e-9
4.43999e+1, -2.91913e-9
4.44999e+1, -2.91897e-9
4.45999e+1, -2.91877e-9
4.46999e+1, -2.91859e-9
4.47999e+1, -2.91854e-9
4.48999e+1, -2.91885e-9
4.49999e+1, -2.91848e-9
4.50999e+1, -2.91847e-9
4.51999e+1, -2.91836e-9
4.52999e+1, -2.91822e-9
4.53999e+1, -2.91829e-9
4.54999e+1, -2.91813e-9
4.55999e+1, -2.91798e-9
4.56999e+1, -2.91820e-9
4.57999e+1, -2.91811e-9
4.58999e+1, -2.91803e-9
4.59999e+1, -2.91786e-9
4.60999e+1, -2.91812e-9
4.61999e+1, -2.91780e-9
4.62999e+1, -2.91778e-9
4.63999e+1, -2.91778e-9
4.64999e+1, -2.91786e-9
4.65999e+1, -2.91766e-9
4.66999e+1, -2.91765e-9
4.67999e+1, -2.91749e-9
4.68999e+1, -2.91725e-9
4.69999e+1, -2.91727e-9
4.70999e+1, -2.91717e-9
4.71999e+1, -2.91709e-9
4.72999e+1, -2.91698e-9
4.73998e+1, -2.91702e-9
4.74998e+1, -2.91668e-9
4.75998e+1, -2.91704e-9
4.76998e+1, -2.91672e-9
4.77998e+1, -2.91680e-9
4.78998e+1, -2.91654e-9
4.79998e+1, -2.91646e-9
4.80998e+1, -2.91661e-9
4.81998e+1, -2.91678e-9
4.82998e+1, -2.91652e-9
4.83998e+1, -2.91641e-9
4.84998e+1, -2.91612e-9
4.85998e+1, -2.91628e-9
4.86998e+1, -2.91624e-9
4.87998e+1, -2.91601e-9
4.88998e+1, -2.91601e-9
4.89998e+1, -2.91575e-9
4.90998e+1, -2.91574e-9
4.91998e+1, -2.91562e-9
4.92998e+1, -2.91557e-9
4.93998e+1, -2.91571e-9
4.94998e+1, -2.91529e-9
4.95998e+1, -2.91366e-9
4.96998e+1, -2.90955e-9
4.97998e+1, -2.90921e-9
4.98998e+1, -2.90952e-9
4.99998e+1, -2.90978e-9
5.00998e+1, -2.90952e-9
5.01998e+1, -2.90929e-9
5.02998e+1, -2.90928e-9
5.03998e+1, -2.90959e-9
5.04998e+1, -2.90962e-9
5.05998e+1, -2.90943e-9
5.06998e+1, -2.90965e-9
5.07998e+1, -2.90917e-9
5.08998e+1, -2.90938e-9
5.09998e+1, -2.90883e-9
5.10998e+1, -2.90904e-9
5.11998e+1, -2.90913e-9
5.12998e+1, -2.90898e-9
5.13998e+1, -2.90874e-9
5.14998e+1, -2.90903e-9
5.15998e+1, -2.90878e-9
5.16998e+1, -2.90924e-9
5.17998e+1, -2.90913e-9
5.18998e+1, -2.90901e-9
5.19998e+1, -2.90928e-9
5.20998e+1, -2.90874e-9
5.21998e+1, -2.90867e-9
5.22998e+1, -2.90868e-9
5.23998e+1, -2.90869e-9
5.24998e+1, -2.90858e-9
5.25998e+1, -2.90859e-9
5.26998e+1, -2.90830e-9
5.27998e+1, -2.90822e-9
5.28998e+1, -2.90830e-9
5.29998e+1, -2.90835e-9
5.30998e+1, -2.90833e-9
5.31998e+1, -2.90837e-9
5.32998e+1, -2.90812e-9
5.33998e+1, -2.90807e-9
5.34998e+1, -2.90822e-9
5.35998e+1, -2.90803e-9
5.36998e+1, -2.90804e-9
5.37998e+1, -2.90807e-9
5.38997e+1, -2.90777e-9
5.39997e+1, -2.90739e-9
5.40997e+1, -2.90770e-9
5.41997e+1, -2.90740e-9
5.42997e+1, -2.90724e-9
5.43997e+1, -2.90747e-9
5.44997e+1, -2.90754e-9
5.45997e+1, -2.90713e-9
5.46997e+1, -2.90701e-9
5.47997e+1, -2.90443e-9
5.48997e+1, -2.90045e-9
5.49997e+1, -2.90040e-9
5.50997e+1, -2.90087e-9
5.51997e+1, -2.90110e-9
5.52997e+1, -2.90101e-9
5.53997e+1, -2.90047e-9
5.54997e+1, -2.90094e-9
5.55997e+1, -2.90067e-9
5.56997e+1, -2.90072e-9
5.57997e+1, -2.90016e-9
5.58997e+1, -2.90016e-9
5.59997e+1, -2.90018e-9
5.60997e+1, -2.90039e-9
5.61997e+1, -2.89998e-9
5.62997e+1, -2.90055e-9
5.63997e+1, -2.90014e-9
5.64997e+1, -2.90018e-9
5.65997e+1, -2.89997e-9
5.66997e+1, -2.89994e-9
5.67997e+1, -2.90003e-9
5.68997e+1, -2.89982e-9
5.69997e+1, -2.89984e-9
5.70997e+1, -2.89979e-9
5.71997e+1, -2.89979e-9
5.72997e+1, -2.89958e-9
5.73997e+1, -2.89982e-9
5.74997e+1, -2.89961e-9
5.75997e+1, -2.89965e-9
5.76997e+1, -2.89970e-9
5.77997e+1, -2.89949e-9
5.78997e+1, -2.89981e-9
5.79997e+1, -2.89948e-9
5.80997e+1, -2.89952e-9
5.81997e+1, -2.89940e-9
5.82997e+1, -2.89964e-9
5.83997e+1, -2.89960e-9
5.84997e+1, -2.89926e-9
5.85997e+1, -2.89920e-9
5.86997e+1, -2.89931e-9
5.87997e+1, -2.89907e-9
5.88997e+1, -2.89907e-9
5.89997e+1, -2.89898e-9
5.90997e+1, -2.89902e-9
5.91997e+1, -2.89911e-9
5.92997e+1, -2.89856e-9
5.93997e+1, -2.89876e-9
5.94997e+1, -2.89875e-9
5.95997e+1, -2.89883e-9
5.96997e+1, -2.89865e-9
5.97997e+1, -2.89900e-9
5.98997e+1, -2.89839e-9
5.99997e+1, -2.89867e-9
6.00997e+1, -2.89842e-9
6.01997e+1, -2.89834e-9
6.02997e+1, -2.89859e-9
6.03997e+1, -2.89841e-9
6.04996e+1, -2.89822e-9
6.05996e+1, -2.89841e-9
6.06996e+1, -2.89828e-9
6.07996e+1, -2.89799e-9
6.08996e+1, -2.89819e-9
6.09996e+1, -2.89806e-9
6.10996e+1, -2.89793e-9
6.11996e+1, -2.89778e-9
6.12996e+1, -2.89788e-9
6.13996e+1, -2.89780e-9
6.14996e+1, -2.89781e-9
6.15996e+1, -2.89774e-9
6.16996e+1, -2.89778e-9
6.17996e+1, -2.89760e-9
6.18996e+1, -2.89770e-9
6.19996e+1, -2.89758e-9
6.20996e+1, -2.89764e-9
6.21996e+1, -2.89754e-9
6.22996e+1, -2.89746e-9
6.23996e+1, -2.89721e-9
6.24996e+1, -2.89732e-9
6.25996e+1, -2.89718e-9
6.26996e+1, -2.89711e-9
6.27996e+1, -2.89740e-9
6.28996e+1, -2.89713e-9
6.29996e+1, -2.89731e-9
6.30996e+1, -2.89705e-9
6.31996e+1, -2.89698e-9
6.32996e+1, -2.89693e-9
6.33996e+1, -2.89707e-9
6.34996e+1, -2.89695e-9
6.35996e+1, -2.89698e-9
6.36996e+1, -2.89683e-9
6.37996e+1, -2.89670e-9
6.38996e+1, -2.89675e-9
6.39996e+1, -2.89658e-9
6.40996e+1, -2.89693e-9
6.41996e+1, -2.89661e-9
6.42996e+1, -2.89654e-9
6.43996e+1, -2.89624e-9
6.44996e+1, -2.89613e-9
6.45996e+1, -2.89631e-9
6.46996e+1, -2.89629e-9
6.47996e+1, -2.89621e-9
6.48996e+1, -2.89609e-9
6.49996e+1, -2.89613e-9
6.50996e+1, -2.89597e-9
6.51996e+1, -2.89599e-9
6.52996e+1, -2.89605e-9
6.53996e+1, -2.89602e-9
6.54996e+1, -2.89587e-9
6.55996e+1, -2.89598e-9
6.56996e+1, -2.89593e-9
6.57996e+1, -2.89557e-9
6.58996e+1, -2.89576e-9
6.59996e+1, -2.89545e-9
6.60996e+1, -2.89578e-9
6.61996e+1, -2.89564e-9
6.62996e+1, -2.89570e-9
6.63996e+1, -2.89551e-9
6.64996e+1, -2.89546e-9
6.65996e+1, -2.89538e-9
6.66996e+1, -2.89529e-9
6.67996e+1, -2.89525e-9
6.68996e+1, -2.89518e-9
6.69995e+1, -2.89518e-9
6.70995e+1, -2.89484e-9
6.71995e+1, -2.89492e-9
6.72995e+1, -2.89516e-9
6.73995e+1, -2.89521e-9
6.74995e+1, -2.89499e-9
6.75995e+1, -2.89511e-9
6.76995e+1, -2.89513e-9
6.77995e+1, -2.89483e-9
6.78995e+1, -2.89464e-9
6.79995e+1, -2.89483e-9
6.80995e+1, -2.89476e-9
6.81995e+1, -2.89473e-9
6.82995e+1, -2.89451e-9
6.83995e+1, -2.89458e-9
6.84995e+1, -2.89475e-9
6.85995e+1, -2.89460e-9
6.86995e+1, -2.89438e-9
6.87995e+1, -2.89462e-9
6.88995e+1, -2.89453e-9
6.89995e+1, -2.89432e-9
6.90995e+1, -2.89443e-9
6.91995e+1, -2.89441e-9
6.92995e+1, -2.89430e-9
6.93995e+1, -2.89409e-9
6.94995e+1, -2.89412e-9
6.95995e+1, -2.89417e-9
6.96995e+1, -2.89405e-9
6.97995e+1, -2.89424e-9
6.98995e+1, -2.89392e-9
6.99995e+1, -2.89396e-9
7.00995e+1, -2.89367e-9
7.01995e+1, -2.89370e-9
7.02995e+1, -2.89390e-9
7.03995e+1, -2.89377e-9
7.04995e+1, -2.89371e-9
7.05995e+1, -2.89355e-9
7.06995e+1, -2.89343e-9
7.07995e+1, -2.89357e-9
7.08995e+1, -2.89324e-9
7.09995e+1, -2.89352e-9
7.10995e+1, -2.89317e-9
7.11995e+1, -2.89350e-9
7.12995e+1, -2.89322e-9
7.13995e+1, -2.89318e-9
7.14995e+1, -2.89343e-9
7.15995e+1, -2.89326e-9
7.16995e+1, -2.89296e-9
7.17995e+1, -2.89296e-9
7.18995e+1, -2.89219e-9
7.19995e+1, -2.89172e-9
7.20995e+1, -2.89163e-9
7.21995e+1, -2.89180e-9
7.22995e+1, -2.89150e-9
7.23995e+1, -2.89183e-9
7.24995e+1, -2.89148e-9
7.25995e+1, -2.89152e-9
7.26995e+1, -2.89136e-9
7.27995e+1, -2.89142e-9
7.28995e+1, -2.89138e-9
7.29995e+1, -2.89117e-9
7.30995e+1, -2.89143e-9
7.31995e+1, -2.89144e-9
7.32995e+1, -2.89102e-9
7.33995e+1, -2.89050e-9
7.34995e+1, -2.88873e-9
7.35994e+1, -2.88731e-9
7.36994e+1, -2.88650e-9
7.37994e+1, -2.88643e-9
7.38994e+1, -2.88658e-9
7.39994e+1, -2.88687e-9
7.40994e+1, -2.88673e-9
7.41994e+1, -2.88644e-9
7.42994e+1, -2.88676e-9
7.43994e+1, -2.88650e-9
7.44994e+1, -2.88618e-9
7.45994e+1, -2.88672e-9
7.46994e+1, -2.88627e-9
7.47994e+1, -2.88636e-9
7.48994e+1, -2.88640e-9
7.49994e+1, -2.88621e-9
7.50994e+1, -2.88642e-9
7.51994e+1, -2.88655e-9
7.52994e+1, -2.88665e-9
7.53994e+1, -2.88640e-9
7.54994e+1, -2.88677e-9
7.55994e+1, -2.88652e-9
7.56994e+1, -2.88614e-9
7.57994e+1, -2.88588e-9
7.58994e+1, -2.88562e-9
7.59994e+1, -2.88558e-9
7.60994e+1, -2.88563e-9
7.61994e+1, -2.88549e-9
7.62994e+1, -2.88501e-9
7.63994e+1, -2.88512e-9
7.64994e+1, -2.88504e-9
7.65994e+1, -2.88512e-9
7.66994e+1, -2.88494e-9
7.67994e+1, -2.88475e-9
7.68994e+1, -2.88463e-9
7.69994e+1, -2.88444e-9
7.70994e+1, -2.87972e-9
7.71994e+1, -2.87931e-9
7.72994e+1, -2.87965e-9
7.73994e+1, -2.87950e-9
7.74994e+1, -2.88013e-9
7.75994e+1, -2.87962e-9
7.76994e+1, -2.87929e-9
7.77994e+1, -2.87926e-9
7.78994e+1, -2.87944e-9
7.79994e+1, -2.87933e-9
7.80994e+1, -2.87921e-9
7.81994e+1, -2.87915e-9
7.82994e+1, -2.87917e-9
7.83994e+1, -2.87941e-9
7.84994e+1, -2.87911e-9
7.85994e+1, -2.87917e-9
7.86994e+1, -2.87865e-9
7.87994e+1, -2.87879e-9
7.88994e+1, -2.87896e-9
7.89994e+1, -2.87881e-9
7.90994e+1, -2.87856e-9
7.91994e+1, -2.87862e-9
7.92994e+1, -2.87866e-9
7.93994e+1, -2.87831e-9
7.94994e+1, -2.87840e-9
7.95994e+1, -2.87851e-9
7.96994e+1, -2.87849e-9
7.97994e+1, -2.87885e-9
7.98994e+1, -2.87836e-9
7.99994e+1, -2.87830e-9
8.00993e+1, -2.87838e-9
8.01993e+1, -2.87813e-9
8.02993e+1, -2.87805e-9
8.03993e+1, -2.87802e-9
8.04993e+1, -2.87816e-9
8.05993e+1, -2.87813e-9
8.06993e+1, -2.87806e-9
8.07993e+1, -2.87814e-9
8.08993e+1, -2.87797e-9
8.09993e+1, -2.87778e-9
8.10993e+1, -2.87792e-9
8.11993e+1, -2.87804e-9
8.12993e+1, -2.87770e-9
8.13993e+1, -2.87792e-9
8.14993e+1, -2.87773e-9
8.15993e+1, -2.87778e-9
8.16993e+1, -2.87779e-9
8.17993e+1, -2.87748e-9
8.18993e+1, -2.87767e-9
8.19993e+1, -2.87759e-9
8.20993e+1, -2.87769e-9
8.21993e+1, -2.87748e-9
8.22993e+1, -2.87738e-9
8.23993e+1, -2.87737e-9
8.24993e+1, -2.87759e-9
8.25993e+1, -2.87744e-9
8.26993e+1, -2.87755e-9
8.27993e+1, -2.87747e-9
8.28993e+1, -2.87709e-9
8.29993e+1, -2.87709e-9
8.30993e+1, -2.87739e-9
8.31993e+1, -2.87727e-9
8.32993e+1, -2.87700e-9
8.33993e+1, -2.87707e-9
8.34993e+1, -2.87711e-9
8.35993e+1, -2.87706e-9
8.36993e+1, -2.87687e-9
8.37993e+1, -2.87708e-9
8.38993e+1, -2.87725e-9
8.39993e+1, -2.87682e-9
8.40993e+1, -2.87718e-9
8.41993e+1, -2.87720e-9
8.42993e+1, -2.87671e-9
8.43993e+1, -2.87690e-9
8.44993e+1, -2.87685e-9
8.45993e+1, -2.87696e-9
8.46993e+1, -2.87660e-9
8.47993e+1, -2.87667e-9
8.48993e+1, -2.87690e-9
8.49993e+1, -2.87647e-9
8.50993e+1, -2.87643e-9
8.51993e+1, -2.87635e-9
8.52993e+1, -2.87638e-9
8.53993e+1, -2.87654e-9
8.54993e+1, -2.87642e-9
8.55993e+1, -2.87649e-9
8.56993e+1, -2.87629e-9
8.57993e+1, -2.87622e-9
8.58993e+1, -2.87624e-9
8.59993e+1, -2.87589e-9
8.60993e+1, -2.87612e-9
8.61993e+1, -2.87605e-9
8.62993e+1, -2.87586e-9
8.63993e+1, -2.87443e-9
8.64993e+1, -2.87354e-9
8.65993e+1, -2.87267e-9
8.66992e+1, -2.87207e-9
8.67992e+1, -2.86866e-9
8.68992e+1, -2.86869e-9
8.69992e+1, -2.86857e-9
8.70992e+1, -2.86856e-9
8.71992e+1, -2.86895e-9
8.72992e+1, -2.86864e-9
8.73992e+1, -2.86853e-9
8.74992e+1, -2.86877e-9
8.75992e+1, -2.86877e-9
8.76992e+1, -2.86903e-9
8.77992e+1, -2.86842e-9
8.78992e+1, -2.86872e-9
8.79992e+1, -2.86858e-9
8.80992e+1, -2.86891e-9
8.81992e+1, -2.86888e-9
8.82992e+1, -2.86857e-9
8.83992e+1, -2.86874e-9
8.84992e+1, -2.86858e-9
8.85992e+1, -2.86817e-9
8.86992e+1, -2.86837e-9
8.87992e+1, -2.86819e-9
8.88992e+1, -2.86837e-9
8.89992e+1, -2.86834e-9
8.90992e+1, -2.86838e-9
8.91992e+1, -2.86857e-9
8.92992e+1, -2.86826e-9
8.93992e+1, -2.86831e-9
8.94992e+1, -2.86838e-9
8.95992e+1, -2.86810e-9
8.96992e+1, -2.86831e-9
8.97992e+1, -2.86808e-9
8.98992e+1, -2.86825e-9
8.99992e+1, -2.86818e-9
9.00992e+1, -2.86804e-9
9.01992e+1, -2.86805e-9
9.02992e+1, -2.86809e-9
9.03992e+1, -2.86811e-9
9.04992e+1, -2.86814e-9
9.05992e+1, -2.86808e-9
9.06992e+1, -2.86796e-9
9.07992e+1, -2.86788e-9
9.08992e+1, -2.86787e-9
9.09992e+1, -2.86788e-9
9.10992e+1, -2.86786e-9
9.11992e+1, -2.86770e-9
9.12992e+1, -2.86806e-9
9.13992e+1, -2.86784e-9
9.14992e+1, -2.86757e-9
9.15992e+1, -2.86772e-9
9.16992e+1, -2.86784e-9
9.17992e+1, -2.86746e-9
9.18992e+1, -2.86775e-9
9.19992e+1, -2.86721e-9
9.20992e+1, -2.86741e-9
9.21992e+1, -2.86749e-9
9.22992e+1, -2.86673e-9
9.23992e+1, -2.86304e-9
9.24992e+1, -2.86117e-9
9.25992e+1, -2.86152e-9
9.26992e+1, -2.86147e-9
9.27992e+1, -2.86161e-9
9.28992e+1, -2.86119e-9
9.29992e+1, -2.86141e-9
9.30992e+1, -2.86123e-9
9.31992e+1, -2.86144e-9
9.32991e+1, -2.86136e-9
9.33991e+1, -2.86164e-9
9.34991e+1, -2.86162e-9
9.35991e+1, -2.86117e-9
9.36991e+1, -2.86150e-9
9.37991e+1, -2.86159e-9
9.38991e+1, -2.86172e-9
9.39991e+1, -2.86144e-9
9.40991e+1, -2.86130e-9
9.41991e+1, -2.86111e-9
9.42991e+1, -2.86138e-9
9.43991e+1, -2.86107e-9
9.44991e+1, -2.86117e-9
9.45991e+1, -2.86143e-9
9.46991e+1, -2.86163e-9
9.47991e+1, -2.86170e-9
9.48991e+1, -2.86137e-9
9.49991e+1, -2.86157e-9
9.50991e+1, -2.86129e-9
9.51991e+1, -2.86131e-9
9.52991e+1, -2.86124e-9
9.53991e+1, -2.86124e-9
9.54991e+1, -2.86133e-9
9.55991e+1, -2.86160e-9
9.56991e+1, -2.86118e-9
9.57991e+1, -2.86089e-9
9.58991e+1, -2.86085e-9
9.59991e+1, -2.86081e-9
9.60991e+1, -2.86067e-9
9.61991e+1, -2.86058e-9
9.62991e+1, -2.86062e-9
9.63991e+1, -2.86062e-9
9.64991e+1, -2.86059e-9
9.65991e+1, -2.86045e-9
9.66991e+1, -2.85996e-9
9.67991e+1, -2.86019e-9
9.68991e+1, -2.86003e-9
9.69991e+1, -2.86009e-9
9.70991e+1, -2.85997e-9
9.71991e+1, -2.85982e-9
9.72991e+1, -2.86036e-9
9.73991e+1, -2.86000e-9
9.74991e+1, -2.86015e-9
9.75991e+1, -2.86017e-9
9.76991e+1, -2.86039e-9
9.77991e+1, -2.86011e-9
9.78991e+1, -2.85988e-9
9.79991e+1, -2.85978e-9
9.80991e+1, -2.86010e-9
9.81991e+1, -2.85971e-9
9.82991e+1, -2.85976e-9
9.83991e+1, -2.85951e-9
9.84991e+1, -2.85949e-9
9.85991e+1, -2.85968e-9
9.86991e+1, -2.85951e-9
9.87991e+1, -2.85952e-9
9.88991e+1, -2.86021e-9
9.89991e+1, -2.85920e-9
9.90991e+1, -2.85966e-9
9.91991e+1, -2.85980e-9
9.92991e+1, -2.85971e-9
9.93991e+1, -2.85964e-9
9.94991e+1, -2.85961e-9
9.95991e+1, -2.85947e-9
9.96991e+1, -2.85940e-9
9.97990e+1, -2.85932e-9
9.98990e+1, -2.85927e-9
9.99990e+1, -2.85904e-9
1.00099e+2, -2.85938e-9
1.00199e+2, -2.85910e-9
1.00299e+2, -2.85925e-9
1.00399e+2, -2.85933e-9
1.00499e+2, -2.85964e-9
1.00599e+2, -2.85901e-9
1.00699e+2, -2.85907e-9
1.00799e+2, -2.85906e-9
1.00899e+2, -2.85918e-9
1.00999e+2, -2.85911e-9
1.01099e+2, -2.85895e-9
1.01199e+2, -2.85871e-9
1.01299e+2, -2.85889e-9
1.01399e+2, -2.85920e-9
1.01499e+2, -2.85901e-9
1.01599e+2, -2.85881e-9
1.01699e+2, -2.85861e-9
1.01799e+2, -2.85882e-9
1.01899e+2, -2.85893e-9
1.01999e+2, -2.85867e-9
1.02099e+2, -2.85871e-9
1.02199e+2, -2.85846e-9
1.02299e+2, -2.85859e-9
1.02399e+2, -2.85863e-9
1.02499e+2, -2.85852e-9
1.02599e+2, -2.85875e-9
1.02699e+2, -2.85862e-9
1.02799e+2, -2.85884e-9
1.02899e+2, -2.85848e-9
1.02999e+2, -2.85867e-9
1.03099e+2, -2.85823e-9
1.03199e+2, -2.85837e-9
1.03299e+2, -2.85836e-9
1.03399e+2, -2.85826e-9
1.03499e+2, -2.85842e-9
1.03599e+2, -2.85808e-9
1.03699e+2, -2.85832e-9
1.03799e+2, -2.85825e-9
1.03899e+2, -2.85815e-9
1.03999e+2, -2.85812e-9
1.04099e+2, -2.85803e-9
1.04199e+2, -2.85845e-9
1.04299e+2, -2.85831e-9
1.04399e+2, -2.85805e-9
1.04499e+2, -2.85784e-9
1.04599e+2, -2.85793e-9
1.04699e+2, -2.85829e-9
1.04799e+2, -2.85796e-9
1.04899e+2, -2.85824e-9
1.04999e+2, -2.85769e-9
1.05099e+2, -2.85772e-9
1.05199e+2, -2.85768e-9
1.05299e+2, -2.85732e-9
1.05399e+2, -2.85713e-9
1.05499e+2, -2.85622e-9
1.05599e+2, -2.85486e-9
1.05699e+2, -2.85488e-9
1.05799e+2, -2.85497e-9
1.05899e+2, -2.85450e-9
1.05999e+2, -2.85263e-9
1.06099e+2, -2.85271e-9
1.06199e+2, -2.85326e-9
1.06299e+2, -2.85266e-9
1.06399e+2, -2.85309e-9
1.06499e+2, -2.85281e-9
1.06599e+2, -2.85255e-9
1.06699e+2, -2.85316e-9
1.06799e+2, -2.85279e-9
1.06899e+2, -2.85289e-9
1.06999e+2, -2.85261e-9
1.07099e+2, -2.85248e-9
1.07199e+2, -2.85272e-9
1.07299e+2, -2.85287e-9
1.07399e+2, -2.85256e-9
1.07499e+2, -2.85266e-9
1.07599e+2, -2.85271e-9
1.07699e+2, -2.85258e-9
1.07799e+2, -2.85262e-9
1.07899e+2, -2.85295e-9
1.07999e+2, -2.85252e-9
1.08099e+2, -2.85265e-9
1.08199e+2, -2.85261e-9
1.08299e+2, -2.85243e-9
1.08399e+2, -2.85232e-9
1.08499e+2, -2.85226e-9
1.08599e+2, -2.85241e-9
1.08699e+2, -2.85232e-9
1.08799e+2, -2.85245e-9
1.08899e+2, -2.85257e-9
1.08999e+2, -2.85206e-9
1.09099e+2, -2.85247e-9
1.09199e+2, -2.85234e-9
1.09299e+2, -2.85257e-9
1.09399e+2, -2.85243e-9
1.09499e+2, -2.85231e-9
1.09599e+2, -2.85228e-9
1.09699e+2, -2.85202e-9
1.09799e+2, -2.85227e-9
1.09899e+2, -2.85194e-9
1.09999e+2, -2.85168e-9
1.10099e+2, -2.85238e-9
1.10199e+2, -2.85221e-9
1.10299e+2, -2.85251e-9
1.10399e+2, -2.85218e-9
1.10499e+2, -2.85216e-9
1.10599e+2, -2.85210e-9
1.10699e+2, -2.85226e-9
1.10799e+2, -2.85215e-9
1.10899e+2, -2.85222e-9
1.10999e+2, -2.85198e-9
1.11099e+2, -2.85203e-9
1.11199e+2, -2.85209e-9
1.11299e+2, -2.85196e-9
1.11399e+2, -2.85181e-9
1.11499e+2, -2.85180e-9
1.11599e+2, -2.85181e-9
1.11699e+2, -2.85188e-9
1.11799e+2, -2.85171e-9
1.11899e+2, -2.85191e-9
1.11999e+2, -2.85198e-9
1.12099e+2, -2.85178e-9
1.12199e+2, -2.85190e-9
1.12299e+2, -2.85157e-9
1.12399e+2, -2.85131e-9
1.12499e+2, -2.85115e-9
1.12599e+2, -2.85107e-9
1.12699e+2, -2.85105e-9
1.12799e+2, -2.85077e-9
1.12899e+2, -2.85098e-9
1.12999e+2, -2.85107e-9
1.13099e+2, -2.85095e-9
1.13199e+2, -2.85122e-9
1.13299e+2, -2.85103e-9
1.13399e+2, -2.85100e-9
1.13499e+2, -2.85106e-9
1.13599e+2, -2.85075e-9
1.13699e+2, -2.85087e-9
1.13799e+2, -2.85096e-9
1.13899e+2, -2.85079e-9
1.13999e+2, -2.85082e-9
1.14099e+2, -2.85089e-9
1.14199e+2, -2.85072e-9
1.14299e+2, -2.85092e-9
1.14399e+2, -2.85077e-9
1.14499e+2, -2.85082e-9
1.14599e+2, -2.85076e-9
1.14699e+2, -2.85058e-9
1.14799e+2, -2.85075e-9
1.14899e+2, -2.85045e-9
1.14999e+2, -2.85055e-9
1.15099e+2, -2.85033e-9
1.15199e+2, -2.85072e-9
1.15299e+2, -2.85038e-9
1.15399e+2, -2.85023e-9
1.15499e+2, -2.84997e-9
1.15599e+2, -2.84839e-9
1.15699e+2, -2.84507e-9
1.15799e+2, -2.84470e-9
1.15899e+2, -2.84485e-9
1.15999e+2, -2.84519e-9
1.16099e+2, -2.84533e-9
1.16199e+2, -2.84554e-9
1.16299e+2, -2.84525e-9
1.16399e+2, -2.84453e-9
1.16499e+2, -2.84487e-9
1.16599e+2, -2.84468e-9
1.16699e+2, -2.84478e-9
1.16799e+2, -2.84477e-9
1.16899e+2, -2.84489e-9
1.16999e+2, -2.84474e-9
1.17099e+2, -2.84490e-9
1.17199e+2, -2.84483e-9
1.17299e+2, -2.84450e-9
1.17399e+2, -2.84473e-9
1.17499e+2, -2.84452e-9
1.17599e+2, -2.84475e-9
1.17699e+2, -2.84437e-9
1.17799e+2, -2.84412e-9
1.17899e+2, -2.84132e-9
1.17999e+2, -2.83830e-9
1.18099e+2, -2.83798e-9
1.18199e+2, -2.83846e-9
1.18299e+2, -2.83861e-9
1.18399e+2, -2.83880e-9
1.18499e+2, -2.83889e-9
1.18599e+2, -2.83896e-9
1.18699e+2, -2.83918e-9
1.18799e+2, -2.83871e-9
1.18899e+2, -2.83889e-9
1.18999e+2, -2.83904e-9
1.19099e+2, -2.83863e-9
1.19199e+2, -2.83902e-9
1.19299e+2, -2.83887e-9
1.19399e+2, -2.83877e-9
1.19499e+2, -2.83885e-9
1.19599e+2, -2.83872e-9
1.19699e+2, -2.83876e-9
1.19799e+2, -2.83888e-9
1.19899e+2, -2.83861e-9
1.19999e+2, -2.83865e-9
1.20099e+2, -2.83874e-9
1.20199e+2, -2.83898e-9
1.20299e+2, -2.83871e-9
1.20399e+2, -2.83903e-9
1.20499e+2, -2.83888e-9
1.20599e+2, -2.83859e-9
1.20699e+2, -2.83835e-9
1.20799e+2, -2.83865e-9
1.20899e+2, -2.83857e-9
1.20999e+2, -2.83844e-9
1.21099e+2, -2.83841e-9
1.21199e+2, -2.83880e-9
1.21299e+2, -2.83850e-9
1.21399e+2, -2.83846e-9
1.21499e+2, -2.83835e-9
1.21599e+2, -2.83830e-9
1.21699e+2, -2.83841e-9
1.21799e+2, -2.83823e-9
1.21899e+2, -2.83854e-9
1.21999e+2, -2.83827e-9
1.22099e+2, -2.83852e-9
1.22199e+2, -2.83823e-9
1.22299e+2, -2.83819e-9
1.22399e+2, -2.83777e-9
1.22499e+2, -2.83793e-9
1.22599e+2, -2.83824e-9
1.22699e+2, -2.83815e-9
1.22799e+2, -2.83827e-9
1.22899e+2, -2.83821e-9
1.22999e+2, -2.83796e-9
1.23099e+2, -2.83802e-9
1.23199e+2, -2.83803e-9
1.23299e+2, -2.83783e-9
1.23399e+2, -2.83792e-9
1.23499e+2, -2.83803e-9
1.23599e+2, -2.83812e-9
1.23699e+2, -2.83777e-9
1.23799e+2, -2.83794e-9
1.23899e+2, -2.83783e-9
1.23999e+2, -2.83778e-9
1.24099e+2, -2.83787e-9
1.24199e+2, -2.83756e-9
1.24299e+2, -2.83761e-9
1.24399e+2, -2.83768e-9
1.24499e+2, -2.83790e-9
1.24599e+2, -2.83789e-9
1.24699e+2, -2.83769e-9
1.24799e+2, -2.83809e-9
1.24899e+2, -2.83742e-9
1.24999e+2, -2.83759e-9
1.25099e+2, -2.83775e-9
1.25199e+2, -2.83783e-9
1.25299e+2, -2.83735e-9
1.25399e+2, -2.83747e-9
1.25499e+2, -2.83774e-9
1.25599e+2, -2.83742e-9
1.25699e+2, -2.83748e-9
1.25799e+2, -2.83745e-9
1.25899e+2, -2.83727e-9
1.25999e+2, -2.83729e-9
1.26099e+2, -2.83713e-9
1.26199e+2, -2.83751e-9
1.26299e+2, -2.83732e-9
1.26399e+2, -2.83733e-9
1.26499e+2, -2.83735e-9
1.26599e+2, -2.83730e-9
1.26699e+2, -2.83716e-9
1.26799e+2, -2.83708e-9
1.26899e+2, -2.83698e-9
1.26999e+2, -2.83718e-9
1.27099e+2, -2.83715e-9
1.27199e+2, -2.83711e-9
1.27299e+2, -2.83703e-9
1.27399e+2, -2.83681e-9
1.27499e+2, -2.83700e-9
1.27599e+2, -2.83693e-9
1.27699e+2, -2.83705e-9
1.27799e+2, -2.83696e-9
1.27899e+2, -2.83723e-9
1.27999e+2, -2.83702e-9
1.28099e+2, -2.83700e-9
1.28199e+2, -2.83669e-9
1.28299e+2, -2.83719e-9
1.28399e+2, -2.83654e-9
1.28499e+2, -2.83680e-9
1.28599e+2, -2.83690e-9
1.28699e+2, -2.83669e-9
1.28799e+2, -2.83678e-9
1.28899e+2, -2.83659e-9
1.28999e+2, -2.83676e-9
1.29099e+2, -2.83632e-9
1.29199e+2, -2.83662e-9
1.29299e+2, -2.83629e-9
1.29399e+2, -2.83662e-9
1.29499e+2, -2.83648e-9
1.29599e+2, -2.83660e-9
1.29699e+2, -2.83645e-9
1.29799e+2, -2.83637e-9
1.29899e+2, -2.83657e-9
1.29999e+2, -2.83635e-9
1.30099e+2, -2.83608e-9
1.30199e+2, -2.83645e-9
1.30299e+2, -2.83646e-9
1.30399e+2, -2.83629e-9
1.30499e+2, -2.83624e-9
1.30599e+2, -2.83635e-9
1.30699e+2, -2.83650e-9
1.30799e+2, -2.83644e-9
1.30899e+2, -2.83655e-9
1.30999e+2, -2.83622e-9
1.31099e+2, -2.83634e-9
1.31199e+2, -2.83606e-9
1.31299e+2, -2.83589e-9
1.31399e+2, -2.83594e-9
1.31499e+2, -2.83583e-9
1.31599e+2, -2.83609e-9
1.31699e+2, -2.83611e-9
1.31799e+2, -2.83612e-9
1.31899e+2, -2.83635e-9
1.31999e+2, -2.83605e-9
1.32099e+2, -2.83591e-9
1.32199e+2, -2.83599e-9
1.32299e+2, -2.83614e-9
1.32399e+2, -2.83593e-9
1.32499e+2, -2.83598e-9
1.32599e+2, -2.83581e-9
1.32699e+2, -2.83605e-9
1.32799e+2, -2.83591e-9
1.32899e+2, -2.83611e-9
1.32999e+2, -2.83569e-9
1.33099e+2, -2.83608e-9
1.33199e+2, -2.83602e-9
1.33299e+2, -2.83602e-9
1.33399e+2, -2.83568e-9
1.33499e+2, -2.83572e-9
1.33599e+2, -2.83541e-9
1.33699e+2, -2.83536e-9
1.33799e+2, -2.83558e-9
1.33899e+2, -2.83580e-9
1.33999e+2, -2.83577e-9
1.34099e+2, -2.83554e-9
1.34199e+2, -2.83557e-9
1.34299e+2, -2.83535e-9
1.34399e+2, -2.83562e-9
1.34499e+2, -2.83541e-9
1.34599e+2, -2.83545e-9
1.34699e+2, -2.83564e-9
1.34799e+2, -2.83548e-9
1.34899e+2, -2.83525e-9
1.34999e+2, -2.83527e-9
1.35099e+2, -2.83524e-9
1.35199e+2, -2.83544e-9
1.35299e+2, -2.83553e-9
1.35399e+2, -2.83564e-9
1.35499e+2, -2.83519e-9
1.35599e+2, -2.83535e-9
1.35699e+2, -2.83535e-9
1.35799e+2, -2.83526e-9
1.35899e+2, -2.83536e-9
1.35999e+2, -2.83562e-9
1.36099e+2, -2.83508e-9
1.36199e+2, -2.83501e-9
1.36299e+2, -2.83510e-9
1.36399e+2, -2.83513e-9
1.36499e+2, -2.83501e-9
1.36599e+2, -2.83516e-9
1.36699e+2, -2.83511e-9
1.36799e+2, -2.83523e-9
1.36899e+2, -2.83533e-9
1.36999e+2, -2.83526e-9
1.37099e+2, -2.83501e-9
1.37199e+2, -2.83512e-9
1.37299e+2, -2.83497e-9
1.37399e+2, -2.83464e-9
1.37499e+2, -2.83453e-9
1.37599e+2, -2.83456e-9
1.37699e+2, -2.83469e-9
1.37799e+2, -2.83474e-9
1.37899e+2, -2.83488e-9
1.37999e+2, -2.83473e-9
1.38099e+2, -2.83491e-9
1.38199e+2, -2.83488e-9
1.38299e+2, -2.83466e-9
1.38399e+2, -2.83468e-9
1.38499e+2, -2.83484e-9
1.38599e+2, -2.83436e-9
1.38699e+2, -2.83464e-9
1.38799e+2, -2.83463e-9
1.38899e+2, -2.83439e-9
1.38999e+2, -2.83461e-9
1.39099e+2, -2.83460e-9
1.39199e+2, -2.83486e-9
1.39299e+2, -2.83424e-9
1.39399e+2, -2.83443e-9
1.39499e+2, -2.83391e-9
1.39599e+2, -2.83423e-9
1.39699e+2, -2.83427e-9
1.39799e+2, -2.83422e-9
1.39899e+2, -2.83461e-9
1.39999e+2, -2.83449e-9
1.40099e+2, -2.83458e-9
1.40199e+2, -2.83447e-9
1.40299e+2, -2.83382e-9
1.40399e+2, -2.83419e-9
1.40499e+2, -2.83427e-9
1.40599e+2, -2.83419e-9
1.40699e+2, -2.83424e-9
1.40799e+2, -2.83402e-9
1.40899e+2, -2.83433e-9
1.40999e+2, -2.83442e-9
1.41099e+2, -2.83375e-9
1.41199e+2, -2.83380e-9
1.41299e+2, -2.83405e-9
1.41399e+2, -2.83353e-9
1.41499e+2, -2.83382e-9
1.41599e+2, -2.83386e-9
1.41699e+2, -2.83365e-9
1.41799e+2, -2.83377e-9
1.41899e+2, -2.83361e-9
1.41999e+2, -2.83400e-9
1.42099e+2, -2.83386e-9
1.42199e+2, -2.83360e-9
1.42299e+2, -2.83385e-9
1.42399e+2, -2.83386e-9
1.42499e+2, -2.83386e-9
1.42600e+2, -2.83377e-9
1.42700e+2, -2.83367e-9
1.42800e+2, -2.83400e-9
1.42900e+2, -2.83347e-9
1.43000e+2, -2.83393e-9
1.43100e+2, -2.83323e-9
1.43200e+2, -2.83356e-9
1.43300e+2, -2.83367e-9
1.43400e+2, -2.83391e-9
1.43500e+2, -2.83370e-9
1.43600e+2, -2.83338e-9
1.43700e+2, -2.83323e-9
1.43800e+2, -2.83360e-9
1.43900e+2, -2.83354e-9
1.44000e+2, -2.83328e-9
1.44100e+2, -2.83342e-9
1.44200e+2, -2.83336e-9
1.44300e+2, -2.83338e-9
1.44400e+2, -2.83323e-9
1.44500e+2, -2.83333e-9
1.44600e+2, -2.83340e-9
1.44700e+2, -2.83327e-9
1.44800e+2, -2.83336e-9
1.44900e+2, -2.83320e-9
1.45000e+2, -2.83330e-9
1.45100e+2, -2.83314e-9
1.45200e+2, -2.83267e-9
1.45300e+2, -2.83279e-9
1.45400e+2, -2.83299e-9
1.45500e+2, -2.83321e-9
1.45600e+2, -2.83327e-9
1.45700e+2, -2.83302e-9
1.45800e+2, -2.83300e-9
1.45900e+2, -2.83304e-9
1.46000e+2, -2.83277e-9
1.46100e+2, -2.83305e-9
1.46200e+2, -2.83295e-9
1.46300e+2, -2.83292e-9
1.46400e+2, -2.83305e-9
1.46500e+2, -2.83305e-9
1.46600e+2, -2.83269e-9
1.46700e+2, -2.83272e-9
1.46800e+2, -2.83280e-9
1.46900e+2, -2.83296e-9
1.47000e+2, -2.83252e-9
1.47100e+2, -2.83275e-9
1.47200e+2, -2.83291e-9
1.47300e+2, -2.83348e-9
1.47400e+2, -2.83278e-9
1.47500e+2, -2.83274e-9
1.47600e+2, -2.83238e-9
1.47700e+2, -2.83257e-9
1.47800e+2, -2.83257e-9
1.47900e+2, -2.83262e-9
1.48000e+2, -2.83249e-9
1.48100e+2, -2.83256e-9
1.48200e+2, -2.83244e-9
1.48300e+2, -2.83226e-9
1.48400e+2, -2.83225e-9
1.48500e+2, -2.83227e-9
1.48600e+2, -2.83230e-9
1.48700e+2, -2.83212e-9
1.48800e+2, -2.83215e-9
1.48900e+2, -2.83220e-9
1.49000e+2, -2.83218e-9
1.49100e+2, -2.83208e-9
1.49200e+2, -2.83282e-9
1.49300e+2, -2.83258e-9
1.49400e+2, -2.83259e-9
1.49500e+2, -2.83232e-9
1.49600e+2, -2.83256e-9
1.49700e+2, -2.83234e-9
1.49800e+2, -2.83273e-9
1.49900e+2, -2.83244e-9
1.50000e+2, -2.83210e-9